File: versuche/roentgenreflektometrie/messwerte/Diffus2.uxd
; (content of file C:\Dokumente und Einstellungen\TU Dortmund\Desktop\Jan-Mareike\Messung2.raw)
_FILEVERSION = 2
_SAMPLE =
_+SAMPLE =
_SITE = Deutschland
_USER = Administrator
_GONIOMETER_CODE = 21
_STAGE_CODE = 19
; Goniometer : D8 theta/theta, stage : Unknown
_SAMPLE_CHANGER_CODE = 0
_ATTACHMENTS_CODE = 0
_GONIOMETER_RADIUS = 350
_FIXED_DIVSLIT = 0.6
_FIXED_SAMPLESLIT = 0
_FIXED_DETSLIT = 11.66
_MONOCHROMATOR = 0
; Incident beam monochromator : None
_THIN_FILM = N
_BETA_FILTER = Y
_FIXED_ANTISLIT = 8.34
_ANALYZER_CODE = 0
; Received beam analyzer : None
_DATEMEASURED = "25-Mar-2015 13:29:06"
_WL_UNIT = A
_WL1 = 1.5406
_WL2 = 1.54439
_WL3 = 1.39222
_WLRATIO = 0.5
_ANODE = Cu

; Data for range 1
_DRIVE = THETA
_STEPTIME = 19.97
_STEPSIZE = 0.005
_STEPMODE = C
_START = 0
_THETA = 0
_2THETA = 0.15
_KHI = 0
_PHI = 0
_X = -1.85
_Y = -0.684
_Z = -4.639
_DETECTOR = 5
; Detector type : Unknown
_DETECTORSLIT = out
_AUX1 = 0
_AUX2 = 0
_AUX3 = 0
_TIMESTARTED = 2
_TEMP_RATE = -1
_TEMP_DELAY = -1
_KV = 40
_MA = 35
_RANGE_WL = 1.5406
_3DPLANE = 0
_V4_COUNTERS_MASK = 4096
_V4_DRIVES_MASK = 0
_V4_ENCODERS_MASK = 0
_2THETACOUNTS = 1
; THETA  PSD
   0.0000    1190990
   0.0050    1121970
   0.0100    1048880
   0.0150     982734
   0.0200     921617
   0.0250     813229
   0.0300     747560
   0.0350     701401
   0.0400     641070
   0.0450     622077
   0.0500     579367
   0.0550     531207
   0.0600     508990
   0.0650     470011
   0.0700     435489
   0.0750     416541
   0.0800     381635
   0.0850     358972
   0.0900     346179
   0.0950     323769
   0.1000     306945
   0.1050     292687
   0.1100     276155
   0.1150     265397
   0.1200     257450
   0.1250     247546
   0.1300     238308
   0.1350     230587
   0.1400     221380
   0.1450     208291
   0.1500     193803
   0.1550     177223
   0.1600     159161
   0.1650     142378
   0.1700     125784
   0.1750     110509
   0.1800      97579
   0.1850      85441
   0.1900      74568
   0.1950      63600
   0.2000      52895
   0.2050      44129
   0.2100      35446
   0.2150      27158
   0.2200      21606
   0.2250      16713
   0.2300      13227
   0.2350      10736
   0.2400       9400
   0.2450       8846
   0.2500       8349
   0.2550       8105
   0.2600       7664
   0.2650       7134
   0.2700       6805
   0.2750       6245
   0.2800       6109
   0.2850       5767
   0.2900       5401
   0.2950       4966
   0.3000       4802
   0.3050       4468
   0.3100       4293
   0.3150       4098
   0.3200       3910
   0.3250       3646
   0.3300       3537
   0.3350       3384
   0.3400       3283
   0.3450       3003
   0.3500       2813
   0.3550       2620
   0.3600       2499
   0.3650       2390
   0.3700       2202
   0.3750       2037
   0.3800       1980
   0.3850       1820
   0.3900       1629
   0.3950       1513
   0.4000       1318
   0.4050       1207
   0.4100       1107
   0.4150        970
   0.4200        936
   0.4250        861
   0.4300        910
   0.4350        826
   0.4400        813
   0.4450        818
   0.4500        788
   0.4550        793
   0.4600        739
   0.4650        672
   0.4700        718
   0.4750        667
   0.4800        644
   0.4850        603
   0.4900        596
   0.4950        573
   0.5000        568
   0.5050        527
   0.5100        508
   0.5150        494
   0.5200        451
   0.5250        486
   0.5300        465
   0.5350        449
   0.5400        422
   0.5450        418
   0.5500        415
   0.5550        391
   0.5600        384
   0.5650        366
   0.5700        338
   0.5750        364
   0.5800        343
   0.5850        336
   0.5900        289
   0.5950        312
   0.6000        323
   0.6050        285
   0.6100        297
   0.6150        256
   0.6200        246
   0.6250        241
   0.6300        234
   0.6350        267
   0.6400        235
   0.6450        217
   0.6500        222
   0.6550        198
   0.6600        218
   0.6650        232
   0.6700        211
   0.6750        182
   0.6800        201
   0.6850        179
   0.6900        182
   0.6950        183
   0.7000        184
   0.7050        154
   0.7100        145
   0.7150        161
   0.7200        160
   0.7250        174
   0.7300        137
   0.7350        147
   0.7400        112
   0.7450        121
   0.7500        129
   0.7550        107
   0.7600        109
   0.7650        118
   0.7700        115
   0.7750        114
   0.7800         96
   0.7850         88
   0.7900        102
   0.7950         94
   0.8000        102
   0.8050         87
   0.8100         76
   0.8150         88
   0.8200         75
   0.8250         94
   0.8300         87
   0.8350         68
   0.8400         80
   0.8450         80
   0.8500         67
   0.8550         70
   0.8600         65
   0.8650         68
   0.8700         65
   0.8750         61
   0.8800         70
   0.8850         63
   0.8900         60
   0.8950         45
   0.9000         52
   0.9050         61
   0.9100         57
   0.9150         48
   0.9200         51
   0.9250         52
   0.9300         42
   0.9350         61
   0.9400         39
   0.9450         44
   0.9500         43
   0.9550         34
   0.9600         40
   0.9650         40
   0.9700         43
   0.9750         40
   0.9800         38
   0.9850         33
   0.9900         30
   0.9950         26
   1.0000         33
   1.0050         20
   1.0100         35
   1.0150         38
   1.0200         37
   1.0250         45
   1.0300         40
   1.0350         28
   1.0400         20
   1.0450         32
   1.0500         23
   1.0550         26
   1.0600         37
   1.0650         35
   1.0700         29
   1.0750         37
   1.0800         25
   1.0850         23
   1.0900         24
   1.0950         37
   1.1000         20
   1.1050         28
   1.1100         21
   1.1150         17
   1.1200         23
   1.1250         41
   1.1300         22
   1.1350         35
   1.1400         21
   1.1450         25
   1.1500         25
   1.1550         19
   1.1600         31
   1.1650         33
   1.1700         27
   1.1750         20
   1.1800         21
   1.1850         17
   1.1900         23
   1.1950         18
   1.2000         27
   1.2050         19
   1.2100         23
   1.2150         28
   1.2200         16
   1.2250         22
   1.2300         20
   1.2350         25
   1.2400         18
   1.2450         20
   1.2500         22
   1.2550         29
   1.2600         20
   1.2650         12
   1.2700         23
   1.2750         23
   1.2800          8
   1.2850         28
   1.2900         19
   1.2950         29
   1.3000         16
   1.3050         18
   1.3100         27
   1.3150         14
   1.3200         14
   1.3250         16
   1.3300         28
   1.3350         17
   1.3400         18
   1.3450         22
   1.3500         21
   1.3550         29
   1.3600         23
   1.3650         21
   1.3700         23
   1.3750         19
   1.3800         12
   1.3850         21
   1.3900         15
   1.3950         20
   1.4000         16
   1.4050         19
   1.4100         17
   1.4150         23
   1.4200         14
   1.4250         19
   1.4300         21
   1.4350         16
   1.4400         18
   1.4450         22
   1.4500         14
   1.4550         19
   1.4600         16
   1.4650         16
   1.4700         13
   1.4750         19
   1.4800         19
   1.4850         14
   1.4900         14
   1.4950         20
   1.5000         16
   1.5050         17
   1.5100         18
   1.5150         15
   1.5200         15
   1.5250          7
   1.5300         17
   1.5350         15
   1.5400         16
   1.5450         15
   1.5500         12
   1.5550         11
   1.5600         17
   1.5650         10
   1.5700         16
   1.5750         21
   1.5800         10
   1.5850         20
   1.5900         14
   1.5950         15
   1.6000          9
   1.6050         15
   1.6100         12
   1.6150         10
   1.6200         10
   1.6250         15
   1.6300         18
   1.6350         11
   1.6400         10
   1.6450         12
   1.6500         10
   1.6550         12
   1.6600          7
   1.6650          9
   1.6700         10
   1.6750         12
   1.6800         12
   1.6850          9
   1.6900         12
   1.6950         14
   1.7000         15
   1.7050         13
   1.7100         16
   1.7150         11
   1.7200         13
   1.7250          8
   1.7300         15
   1.7350         19
   1.7400         12
   1.7450         19
   1.7500         10
   1.7550          9
   1.7600         13
   1.7650         10
   1.7700          6
   1.7750          9
   1.7800         12
   1.7850         10
   1.7900          6
   1.7950         15
   1.8000          7
   1.8050          7
   1.8100          9
   1.8150          9
   1.8200         11
   1.8250          9
   1.8300         11
   1.8350         11
   1.8400          5
   1.8450          9
   1.8500          7
   1.8550         13
   1.8600         10
   1.8650         16
   1.8700         10
   1.8750          6
   1.8800          7
   1.8850          9
   1.8900         11
   1.8950         11
   1.9000         19
   1.9050          6
   1.9100          6
   1.9150         11
   1.9200         13
   1.9250         10
   1.9300          9
   1.9350         10
   1.9400         10
   1.9450          8
   1.9500          6
   1.9550         11
   1.9600          5
   1.9650          2
   1.9700          3
   1.9750          2
   1.9800         11
   1.9850          8
   1.9900          9
   1.9950          3
   2.0000          9
   2.0050          8
   2.0100         10
   2.0150         11
   2.0200          5
   2.0250          4
   2.0300          4
   2.0350          8
   2.0400         10
   2.0450          6
   2.0500          5
   2.0550          8
   2.0600          5
   2.0650          9
   2.0700          3
   2.0750          6
   2.0800          6
   2.0850          8
   2.0900          9
   2.0950          7
   2.1000         10
   2.1050         11
   2.1100          4
   2.1150          6
   2.1200          8
   2.1250          6
   2.1300          6
   2.1350          8
   2.1400         10
   2.1450          7
   2.1500          7
   2.1550          6
   2.1600          7
   2.1650          7
   2.1700          9
   2.1750          6
   2.1800         10
   2.1850          7
   2.1900          7
   2.1950          8
   2.2000          7
   2.2050          8
   2.2100          7
   2.2150          9
   2.2200          8
   2.2250          7
   2.2300         10
   2.2350          5
   2.2400         11
   2.2450          9
   2.2500          2
   2.2550          5
   2.2600          6
   2.2650          9
   2.2700          6
   2.2750          3
   2.2800          8
   2.2850          6
   2.2900          4
   2.2950          5
   2.3000          5
   2.3050          4
   2.3100          4
   2.3150          8
   2.3200          7
   2.3250          7
   2.3300          3
   2.3350         13
   2.3400          1
   2.3450          3
   2.3500          7
   2.3550          5
   2.3600          2
   2.3650          7
   2.3700          5
   2.3750          4
   2.3800          4
   2.3850          5
   2.3900          6
   2.3950          7
   2.4000          5
   2.4050          4
   2.4100          4
   2.4150          5
   2.4200          9
   2.4250          3
   2.4300          2
   2.4350          4
   2.4400          5
   2.4450          4
   2.4500          9
   2.4550          9
   2.4600          6
   2.4650          8
   2.4700          8
   2.4750          6
   2.4800          5
   2.4850          2
   2.4900          7
   2.4950          6
   2.5000         11