File: versuche/roentgenreflektometrie/messwerte/Messung.uxd
; (content of file C:\Dokumente und Einstellungen\TU Dortmund\Desktop\Praktikum\Mario\Messung.raw)
_FILEVERSION = 2
_SAMPLE =
_+SAMPLE =
_SITE = Deutschland
_USER = Administrator
_GONIOMETER_CODE = 21
_STAGE_CODE = 19
; Goniometer : D8 theta/theta, stage : Unknown
_SAMPLE_CHANGER_CODE = 0
_ATTACHMENTS_CODE = 0
_GONIOMETER_RADIUS = 350
_FIXED_DIVSLIT = 0.6
_FIXED_SAMPLESLIT = 0
_FIXED_DETSLIT = 11.66
_MONOCHROMATOR = 0
; Incident beam monochromator : None
_THIN_FILM = N
_BETA_FILTER = Y
_FIXED_ANTISLIT = 8.34
_ANALYZER_CODE = 0
; Received beam analyzer : None
_DATEMEASURED = "27-Apr-2015 11:09:34"
_WL_UNIT = A
_WL1 = 1.5406
_WL2 = 1.54439
_WL3 = 1.39222
_WLRATIO = 0.5
_ANODE = Cu

; Data for range 1
_DRIVE = THETA
_STEPTIME = 19.97
_STEPSIZE = 0.005
_STEPMODE = C
_START = 0
_THETA = 0
_2THETA = 0
_KHI = 0
_PHI = 0
_X = 9.6
_Y = 0
_Z = -6.401
_DETECTOR = 5
; Detector type : Unknown
_DETECTORSLIT = out
_AUX1 = 0
_AUX2 = 0
_AUX3 = 0
_TIMESTARTED = 3
_TEMP_RATE = -1
_TEMP_DELAY = -1
_KV = 40
_MA = 35
_RANGE_WL = 1.5406
_3DPLANE = 0
_V4_COUNTERS_MASK = 4096
_V4_DRIVES_MASK = 0
_V4_ENCODERS_MASK = 0
_2THETACOUNTS = 1
; THETA  PSD
   0.0000    9426040
   0.0050   10026100
   0.0100    9901120
   0.0150    9013690
   0.0200    7737960
   0.0250    6351830
   0.0300    4976340
   0.0350    3757540
   0.0400    2926250
   0.0450    2330980
   0.0500    1944610
   0.0550    1740850
   0.0600    1626720
   0.0650    1557300
   0.0700    1528650
   0.0750    1547740
   0.0800    1568450
   0.0850    1612570
   0.0900    1652860
   0.0950    1696250
   0.1000    1743000
   0.1050    1798510
   0.1100    1838410
   0.1150    1886580
   0.1200    1938260
   0.1250    1987600
   0.1300    2045860
   0.1350    2105120
   0.1400    2157730
   0.1450    2218700
   0.1500    2271100
   0.1550    2323360
   0.1600    2367110
   0.1650    2412810
   0.1700    2448010
   0.1750    2471640
   0.1800    2490010
   0.1850    2488240
   0.1900    2475460
   0.1950    2449720
   0.2000    2385560
   0.2050    2264530
   0.2100    2084310
   0.2150    1861270
   0.2200    1611920
   0.2250    1354270
   0.2300    1093050
   0.2350     858654
   0.2400     682954
   0.2450     564162
   0.2500     484091
   0.2550     421592
   0.2600     371490
   0.2650     327187
   0.2700     286552
   0.2750     249318
   0.2800     213892
   0.2850     183542
   0.2900     155456
   0.2950     130345
   0.3000     106383
   0.3050      86776
   0.3100      70386
   0.3150      54649
   0.3200      42862
   0.3250      32897
   0.3300      24378
   0.3350      18453
   0.3400      14002
   0.3450      10767
   0.3500       8875
   0.3550       8166
   0.3600       8588
   0.3650       9561
   0.3700      11055
   0.3750      12922
   0.3800      15079
   0.3850      17489
   0.3900      19748
   0.3950      21891
   0.4000      23755
   0.4050      25562
   0.4100      27066
   0.4150      28593
   0.4200      29467
   0.4250      29997
   0.4300      29799
   0.4350      29725
   0.4400      29295
   0.4450      28338
   0.4500      27611
   0.4550      25911
   0.4600      24645
   0.4650      22874
   0.4700      21093
   0.4750      19273
   0.4800      17300
   0.4850      15541
   0.4900      13608
   0.4950      11723
   0.5000      10156
   0.5050       8258
   0.5100       7071
   0.5150       5735
   0.5200       4554
   0.5250       3667
   0.5300       2884
   0.5350       2354
   0.5400       1937
   0.5450       1640
   0.5500       1563
   0.5550       1519
   0.5600       1712
   0.5650       2065
   0.5700       2310
   0.5750       2819
   0.5800       3125
   0.5850       3745
   0.5900       4076
   0.5950       4706
   0.6000       5015
   0.6050       5470
   0.6100       5896
   0.6150       6154
   0.6200       6451
   0.6250       6703
   0.6300       6860
   0.6350       6921
   0.6400       6717
   0.6450       6872
   0.6500       6527
   0.6550       6409
   0.6600       6153
   0.6650       5846
   0.6700       5499
   0.6750       4925
   0.6800       4559
   0.6850       4086
   0.6900       3662
   0.6950       3319
   0.7000       2794
   0.7050       2419
   0.7100       2025
   0.7150       1633
   0.7200       1346
   0.7250       1092
   0.7300        899
   0.7350        732
   0.7400        579
   0.7450        469
   0.7500        433
   0.7550        406
   0.7600        474
   0.7650        467
   0.7700        564
   0.7750        705
   0.7800        821
   0.7850        927
   0.7900       1142
   0.7950       1202
   0.8000       1399
   0.8050       1588
   0.8100       1696
   0.8150       1864
   0.8200       1950
   0.8250       2039
   0.8300       2065
   0.8350       2119
   0.8400       2135
   0.8450       2178
   0.8500       2146
   0.8550       2032
   0.8600       2045
   0.8650       1938
   0.8700       1808
   0.8750       1766
   0.8800       1596
   0.8850       1484
   0.8900       1325
   0.8950       1239
   0.9000       1103
   0.9050        992
   0.9100        827
   0.9150        731
   0.9200        643
   0.9250        482
   0.9300        406
   0.9350        382
   0.9400        309
   0.9450        200
   0.9500        201
   0.9550        194
   0.9600        195
   0.9650        187
   0.9700        209
   0.9750        258
   0.9800        265
   0.9850        332
   0.9900        382
   0.9950        428
   1.0000        456
   1.0050        574
   1.0100        589
   1.0150        672
   1.0200        717
   1.0250        735
   1.0300        751
   1.0350        810
   1.0400        803
   1.0450        852
   1.0500        837
   1.0550        825
   1.0600        830
   1.0650        813
   1.0700        768
   1.0750        828
   1.0800        675
   1.0850        659
   1.0900        639
   1.0950        555
   1.1000        521
   1.1050        469
   1.1100        406
   1.1150        383
   1.1200        325
   1.1250        262
   1.1300        205
   1.1350        187
   1.1400        183
   1.1450        133
   1.1500        107
   1.1550        101
   1.1600         97
   1.1650         86
   1.1700         92
   1.1750        101
   1.1800        101
   1.1850        113
   1.1900        118
   1.1950        167
   1.2000        201
   1.2050        204
   1.2100        235
   1.2150        249
   1.2200        254
   1.2250        298
   1.2300        292
   1.2350        317
   1.2400        361
   1.2450        333
   1.2500        359
   1.2550        381
   1.2600        371
   1.2650        348
   1.2700        360
   1.2750        335
   1.2800        341
   1.2850        316
   1.2900        282
   1.2950        301
   1.3000        262
   1.3050        219
   1.3100        233
   1.3150        201
   1.3200        176
   1.3250        170
   1.3300        120
   1.3350        118
   1.3400        105
   1.3450         97
   1.3500         65
   1.3550         55
   1.3600         61
   1.3650         39
   1.3700         39
   1.3750         49
   1.3800         37
   1.3850         52
   1.3900         39
   1.3950         71
   1.4000         68
   1.4050         71
   1.4100         84
   1.4150        119
   1.4200        116
   1.4250        131
   1.4300        121
   1.4350        143
   1.4400        156
   1.4450        161
   1.4500        160
   1.4550        194
   1.4600        169
   1.4650        183
   1.4700        177
   1.4750        190
   1.4800        172
   1.4850        132
   1.4900        160
   1.4950        143
   1.5000        138
   1.5050        142
   1.5100        132
   1.5150        125
   1.5200        107
   1.5250         99
   1.5300         82
   1.5350         84
   1.5400         61
   1.5450         56
   1.5500         51
   1.5550         52
   1.5600         37
   1.5650         31
   1.5700         28
   1.5750         26
   1.5800         34
   1.5850         44
   1.5900         27
   1.5950         24
   1.6000         29
   1.6050         35
   1.6100         39
   1.6150         44
   1.6200         58
   1.6250         53
   1.6300         63
   1.6350         66
   1.6400         69
   1.6450         74
   1.6500         81
   1.6550         89
   1.6600         91
   1.6650         95
   1.6700        100
   1.6750         74
   1.6800         78
   1.6850         93
   1.6900         74
   1.6950         80
   1.7000         82
   1.7050         86
   1.7100         74
   1.7150         76
   1.7200         63
   1.7250         55
   1.7300         53
   1.7350         46
   1.7400         50
   1.7450         37
   1.7500         35
   1.7550         39
   1.7600         31
   1.7650         29
   1.7700         25
   1.7750         20
   1.7800         13
   1.7850         12
   1.7900         15
   1.7950         13
   1.8000         18
   1.8050         16
   1.8100         27
   1.8150         25
   1.8200         34
   1.8250         23
   1.8300         24
   1.8350         37
   1.8400         35
   1.8450         48
   1.8500         39
   1.8550         30
   1.8600         60
   1.8650         37
   1.8700         45
   1.8750         49
   1.8800         61
   1.8850         55
   1.8900         45
   1.8950         37
   1.9000         46
   1.9050         46
   1.9100         55
   1.9150         43
   1.9200         42
   1.9250         34
   1.9300         40
   1.9350         44
   1.9400         24
   1.9450         19
   1.9500         24
   1.9550         31
   1.9600         12
   1.9650         25
   1.9700         16
   1.9750         21
   1.9800         18
   1.9850         15
   1.9900         15
   1.9950         15
   2.0000         22
   2.0050          8
   2.0100         16
   2.0150         11
   2.0200         17
   2.0250         12
   2.0300         19
   2.0350          9
   2.0400         24
   2.0450         23
   2.0500         21
   2.0550         22
   2.0600         19
   2.0650         34
   2.0700         23
   2.0750         33
   2.0800         18
   2.0850         31
   2.0900         25
   2.0950         30
   2.1000         30
   2.1050         28
   2.1100         26
   2.1150         27
   2.1200         30
   2.1250         29
   2.1300         26
   2.1350         25
   2.1400         23
   2.1450         21
   2.1500         18
   2.1550         13
   2.1600         15
   2.1650         17
   2.1700         17
   2.1750         20
   2.1800         15
   2.1850         11
   2.1900         11
   2.1950         13
   2.2000         10
   2.2050          6
   2.2100          7
   2.2150          7
   2.2200         12
   2.2250         11
   2.2300          7
   2.2350          7
   2.2400         17
   2.2450         12
   2.2500         19
   2.2550         15
   2.2600         20
   2.2650         13
   2.2700         20
   2.2750         18
   2.2800         21
   2.2850         19
   2.2900         23
   2.2950         14
   2.3000         15
   2.3050         21
   2.3100         24
   2.3150         27
   2.3200         20
   2.3250         20
   2.3300         15
   2.3350         18
   2.3400         14
   2.3450         18
   2.3500         12
   2.3550         14
   2.3600          7
   2.3650         11
   2.3700         10
   2.3750          6
   2.3800         10
   2.3850          4
   2.3900          4
   2.3950          4
   2.4000          5
   2.4050         14
   2.4100          7
   2.4150         10
   2.4200          9
   2.4250          5
   2.4300          7
   2.4350          9
   2.4400          7
   2.4450          5
   2.4500          6
   2.4550         11
   2.4600         14
   2.4650          9
   2.4700         11
   2.4750         10
   2.4800         15
   2.4850         11
   2.4900         11
   2.4950          9
   2.5000         11